corrAns,directNote,trials.thisRepN,trials.thisTrialN,trials.thisN,trials.thisIndex,instrText.started,instrText.stopped,directions.keys,directions.corr,directions.started,directions.stopped,map.started,map.stopped,directions.rt,text.started,text.stopped,key_resp.keys,key_resp.rt,key_resp.started,key_resp.stopped,participant,session,date,expName,psychopyVersion,frameRate,
s,None,0,0,0,4,70.44180889986455,None,None,0,83.46200619987212,None,83.46200619987212,None,,,,,,,,1,001,2020_Nov_01_1952,road map expt,2020.2.4,60.062621332313476,
k,None,0,1,1,22,,,None,0,102.47830670000985,None,102.47830670000985,None,,,,,,,,1,001,2020_Nov_01_1952,road map expt,2020.2.4,60.062621332313476,
k,None,0,2,2,30,,,s,0,122.4780420998577,None,122.4780420998577,None,19.90040359995328,,,,,,,1,001,2020_Nov_01_1952,road map expt,2020.2.4,60.062621332313476,
k,None,0,3,3,2,,,k,1,142.39602270000614,None,142.39602270000614,None,3.0646348998416215,,,,,,,1,001,2020_Nov_01_1952,road map expt,2020.2.4,60.062621332313476,
s,None,0,4,4,5,,,k,0,145.47673149988987,None,145.47673149988987,None,1.536492699990049,,,,,,,1,001,2020_Nov_01_1952,road map expt,2020.2.4,60.062621332313476,
k,None,0,5,5,14,,,s,0,147.0410348000005,None,147.0410348000005,None,1.5001358999870718,,,,,,,1,001,2020_Nov_01_1952,road map expt,2020.2.4,60.062621332313476,
s,None,0,6,6,19,,,s,1,148.55712509993464,None,148.55712509993464,None,1.6971591000910848,,,,,,,1,001,2020_Nov_01_1952,road map expt,2020.2.4,60.062621332313476,
s,s = left,0,7,7,0,,,k,0,150.27221979992464,None,150.27221979992464,None,0.7325607999227941,,,,,,,1,001,2020_Nov_01_1952,road map expt,2020.2.4,60.062621332313476,
s,None,0,8,8,26,,,k,0,151.02233619987965,None,151.02233619987965,None,0.6483370999339968,,,,,,,1,001,2020_Nov_01_1952,road map expt,2020.2.4,60.062621332313476,
k,None,0,9,9,28,,,k,1,151.68821519985795,None,151.68821519985795,None,1.71345640020445,,,,,,,1,001,2020_Nov_01_1952,road map expt,2020.2.4,60.062621332313476,
s,None,0,10,10,15,,,s,1,153.41997139994055,None,153.41997139994055,None,3.2964601998683065,,,,,,,1,001,2020_Nov_01_1952,road map expt,2020.2.4,60.062621332313476,
k,None,0,11,11,31,,,k,1,156.73373209987767,None,156.73373209987767,None,0.9581876001320779,,,,,,,1,001,2020_Nov_01_1952,road map expt,2020.2.4,60.062621332313476,
s,None,0,12,12,21,,,s,1,157.71626919996925,None,157.71626919996925,None,0.8421690000686795,,,,,,,1,001,2020_Nov_01_1952,road map expt,2020.2.4,60.062621332313476,
k,None,0,13,13,18,,,s,0,158.58216409990564,None,158.58216409990564,None,0.6528084001038224,,,,,,,1,001,2020_Nov_01_1952,road map expt,2020.2.4,60.062621332313476,
k,None,0,14,14,6,,,k,1,159.26511289994232,None,159.26511289994232,None,1.746796099934727,,,,,,,1,001,2020_Nov_01_1952,road map expt,2020.2.4,60.062621332313476,
s,k = right,0,15,15,1,,,k,0,161.03074020007625,None,161.03074020007625,None,6.566477600019425,,,,,,,1,001,2020_Nov_01_1952,road map expt,2020.2.4,60.062621332313476,
s,None,0,16,16,9,,,s,1,167.62492299987935,None,167.62492299987935,None,1.2866366999223828,,,,,,,1,001,2020_Nov_01_1952,road map expt,2020.2.4,60.062621332313476,
k,None,0,17,17,23,,,k,1,168.94028649991378,None,168.94028649991378,None,0.34746069996617734,,,,,,,1,001,2020_Nov_01_1952,road map expt,2020.2.4,60.062621332313476,
k,None,0,18,18,3,,,s,0,169.30671139992774,None,169.30671139992774,None,0.2653075000271201,,,,,,,1,001,2020_Nov_01_1952,road map expt,2020.2.4,60.062621332313476,
s,None,0,19,19,25,,,k,0,169.59009899990633,None,169.59009899990633,None,0.13177019986324012,,,,,,,1,001,2020_Nov_01_1952,road map expt,2020.2.4,60.062621332313476,
s,None,0,20,20,20,,,s,1,169.745319099864,None,169.745319099864,None,0.2060924000106752,,,,,,,1,001,2020_Nov_01_1952,road map expt,2020.2.4,60.062621332313476,
s,None,0,21,21,11,,,k,0,169.97310089995153,None,169.97310089995153,None,0.09562380006536841,,,,,,,1,001,2020_Nov_01_1952,road map expt,2020.2.4,60.062621332313476,
k,None,0,22,22,27,,,s,0,170.09220269997604,None,170.09220269997604,None,0.17645230004563928,,,,,,,1,001,2020_Nov_01_1952,road map expt,2020.2.4,60.062621332313476,
s,None,0,23,23,12,,,k,0,170.29039689991623,None,170.29039689991623,None,0.10708490014076233,,,,,,,1,001,2020_Nov_01_1952,road map expt,2020.2.4,60.062621332313476,
k,None,0,24,24,17,,,s,0,170.4224050999619,None,170.4224050999619,None,0.17959280009381473,,,,,,,1,001,2020_Nov_01_1952,road map expt,2020.2.4,60.062621332313476,
s,None,0,25,25,29,,,k,0,170.6224615999963,None,170.6224615999963,None,0.16720180003903806,,,,,,,1,001,2020_Nov_01_1952,road map expt,2020.2.4,60.062621332313476,
s,None,0,26,26,16,,,s,1,170.80552609986626,None,170.80552609986626,None,0.10685119987465441,,,,,,,1,001,2020_Nov_01_1952,road map expt,2020.2.4,60.062621332313476,
k,None,0,27,27,8,,,k,1,170.93902239995077,None,170.93902239995077,None,0.16802019998431206,,,,,,,1,001,2020_Nov_01_1952,road map expt,2020.2.4,60.062621332313476,
k,None,0,28,28,10,,,s,0,171.12117039994337,None,171.12117039994337,None,0.06656809989362955,,,,,,,1,001,2020_Nov_01_1952,road map expt,2020.2.4,60.062621332313476,
k,None,0,29,29,13,,,k,1,171.20632710005157,None,171.20632710005157,None,0.18067450006492436,,,,,,,1,001,2020_Nov_01_1952,road map expt,2020.2.4,60.062621332313476,
k,None,0,30,30,7,,,s,0,171.4043056999799,None,171.4043056999799,None,0.1055475000757724,,,,,,,1,001,2020_Nov_01_1952,road map expt,2020.2.4,60.062621332313476,
s,None,0,31,31,24,,,k,0,171.53772890008986,None,171.53772890008986,None,0.1554570000153035,,,,,,,1,001,2020_Nov_01_1952,road map expt,2020.2.4,60.062621332313476,
,,,,,,,,,,,,,,,171.71938110003248,None,s,0.09125420008786023,171.71938110003248,None,1,001,2020_Nov_01_1952,road map expt,2020.2.4,60.062621332313476,
