corrAns,directNote,trials.thisRepN,trials.thisTrialN,trials.thisN,trials.thisIndex,instrText.started,instrText.stopped,directions.keys,directions.corr,directions.rt,directions.started,directions.stopped,map.started,map.stopped,participant,session,date,expName,psychopyVersion,frameRate,
k,None,0,0,0,7,16.255286999978125,None,['k'],0,[26.2951822001487],27.030973799992353,None,27.030973799992353,47.03101660008542,1,001,2020_Nov_02_1403,road map expt,2020.2.4,60.034712069252784,
s,None,0,1,1,5,,,['k'],0,[1.1779201000463217],53.34464849997312,None,53.34464849997312,None,1,001,2020_Nov_02_1403,road map expt,2020.2.4,60.034712069252784,
s,None,0,2,2,19,,,['s'],0,[1.3165219000075012],54.54376420006156,None,54.54376420006156,None,1,001,2020_Nov_02_1403,road map expt,2020.2.4,60.034712069252784,
k,None,0,3,3,13,,,['k'],0,[0.18489639996550977],55.87586150015704,None,55.87586150015704,None,1,001,2020_Nov_02_1403,road map expt,2020.2.4,60.034712069252784,
s,None,0,4,4,4,,,['s'],0,[0.29257849999703467],56.09241769998334,None,56.09241769998334,None,1,001,2020_Nov_02_1403,road map expt,2020.2.4,60.034712069252784,
k,None,0,5,5,2,,,['k'],0,[0.18954690010286868],56.408854900160804,None,56.408854900160804,None,1,001,2020_Nov_02_1403,road map expt,2020.2.4,60.034712069252784,
k,None,0,6,6,8,,,['k'],0,[0.17144579999148846],56.6253581000492,None,56.6253581000492,None,1,001,2020_Nov_02_1403,road map expt,2020.2.4,60.034712069252784,
s,None,0,7,7,25,,,['s'],0,[0.11754760006442666],56.82455740007572,None,56.82455740007572,None,1,001,2020_Nov_02_1403,road map expt,2020.2.4,60.034712069252784,
k,None,0,8,8,30,,,['k'],0,[0.1437025999184698],56.95846120011993,None,56.95846120011993,None,1,001,2020_Nov_02_1403,road map expt,2020.2.4,60.034712069252784,
s,None,0,9,9,12,,,['s'],0,[0.15793429990299046],57.124178000027314,None,57.124178000027314,None,1,001,2020_Nov_02_1403,road map expt,2020.2.4,60.034712069252784,
k,None,0,10,10,22,,,['k'],0,[0.027928499970585108],57.30764190014452,None,57.30764190014452,None,1,001,2020_Nov_02_1403,road map expt,2020.2.4,60.034712069252784,
s,None,0,11,11,21,,,['s'],0,[0.16163960006088018],57.35787310008891,None,57.35787310008891,None,1,001,2020_Nov_02_1403,road map expt,2020.2.4,60.034712069252784,
k,None,0,12,12,31,,,['k'],0,[0.1526319000404328],57.540998600190505,None,57.540998600190505,None,1,001,2020_Nov_02_1403,road map expt,2020.2.4,60.034712069252784,
s,None,0,13,13,9,,,['s'],0,[0.04395029996521771],57.72467670007609,None,57.72467670007609,None,1,001,2020_Nov_02_1403,road map expt,2020.2.4,60.034712069252784,
k,None,0,14,14,18,,,['k'],0,[0.08959829993546009],57.79089850001037,None,57.79089850001037,None,1,001,2020_Nov_02_1403,road map expt,2020.2.4,60.034712069252784,
s,None,0,15,15,29,,,['s'],0,[0.0747191000264138],57.90753940003924,None,57.90753940003924,None,1,001,2020_Nov_02_1403,road map expt,2020.2.4,60.034712069252784,
k,None,0,16,16,3,,,['k'],0,[0.03351670014671981],58.00754200015217,None,58.00754200015217,None,1,001,2020_Nov_02_1403,road map expt,2020.2.4,60.034712069252784,
s,None,0,17,17,24,,,['s'],0,[0.13723690016195178],58.057640000013635,None,58.057640000013635,None,1,001,2020_Nov_02_1403,road map expt,2020.2.4,60.034712069252784,
k,None,0,18,18,28,,,['k'],0,[0.0028780000284314156],58.22397839999758,None,58.22397839999758,None,1,001,2020_Nov_02_1403,road map expt,2020.2.4,60.034712069252784,
s,None,0,19,19,11,,,"['s', 'k']",0,"[0.15361360018141568, 0.15878770011477172]",58.24065749999136,None,58.24065749999136,None,1,001,2020_Nov_02_1403,road map expt,2020.2.4,60.034712069252784,
s,None,0,20,20,15,,,['s'],0,[0.13346910011023283],58.42375800013542,None,58.42375800013542,None,1,001,2020_Nov_02_1403,road map expt,2020.2.4,60.034712069252784,
s,s = left,0,21,21,0,,,['k'],0,[0.17098050005733967],58.57368770008907,None,58.57368770008907,None,1,001,2020_Nov_02_1403,road map expt,2020.2.4,60.034712069252784,
s,None,0,22,22,26,,,['s'],0,[0.1076619999948889],58.772829500027,None,58.772829500027,None,1,001,2020_Nov_02_1403,road map expt,2020.2.4,60.034712069252784,
k,None,0,23,23,14,,,['k'],0,[0.059567200019955635],58.90634930017404,None,58.90634930017404,None,1,001,2020_Nov_02_1403,road map expt,2020.2.4,60.034712069252784,
k,None,0,24,24,6,,,['s'],0,[0.11943479999899864],58.989821300143376,None,58.989821300143376,None,1,001,2020_Nov_02_1403,road map expt,2020.2.4,60.034712069252784,
s,None,0,25,25,16,,,['k'],0,[0.028395600151270628],59.13970290008001,None,59.13970290008001,None,1,001,2020_Nov_02_1403,road map expt,2020.2.4,60.034712069252784,
k,None,0,26,26,17,,,"['s', 'k']",0,"[0.1519271000288427, 0.157411300111562]",59.18977649998851,None,59.18977649998851,None,1,001,2020_Nov_02_1403,road map expt,2020.2.4,60.034712069252784,
k,None,0,27,27,27,,,['s'],0,[0.16775229992344975],59.37285690009594,None,59.37285690009594,None,1,001,2020_Nov_02_1403,road map expt,2020.2.4,60.034712069252784,
k,None,0,28,28,23,,,['s'],0,[0.22218600008636713],59.55606980016455,None,59.55606980016455,None,1,001,2020_Nov_02_1403,road map expt,2020.2.4,60.034712069252784,
k,None,0,29,29,10,,,['k'],0,[0.07949410006403923],59.805850400123745,None,59.805850400123745,None,1,001,2020_Nov_02_1403,road map expt,2020.2.4,60.034712069252784,
s,k = right,0,30,30,1,,,['s'],0,[0.13968089991249144],59.905230900039896,None,59.905230900039896,None,1,001,2020_Nov_02_1403,road map expt,2020.2.4,60.034712069252784,
s,None,0,31,31,20,,,['k'],0,[0.2155561000108719],60.072542200097814,None,60.072542200097814,None,1,001,2020_Nov_02_1403,road map expt,2020.2.4,60.034712069252784,
k,None,1,0,32,2,,,['s'],0,[0.04177250014618039],60.305065700085834,None,60.305065700085834,None,1,001,2020_Nov_02_1403,road map expt,2020.2.4,60.034712069252784,
s,None,1,1,33,19,,,['k'],0,[0.16379610006697476],60.372244000202045,None,60.372244000202045,None,1,001,2020_Nov_02_1403,road map expt,2020.2.4,60.034712069252784,
s,None,1,2,34,21,,,['s'],0,[0.14070549979805946],60.55538240005262,None,60.55538240005262,None,1,001,2020_Nov_02_1403,road map expt,2020.2.4,60.034712069252784,
k,None,1,3,35,8,,,['k'],0,[0.04926110012456775],60.72182189999148,None,60.72182189999148,None,1,001,2020_Nov_02_1403,road map expt,2020.2.4,60.034712069252784,
s,None,1,4,36,5,,,"['k', 's']",0,"[0.17344600008800626, 0.18409259989857674]",60.788691700203344,None,60.788691700203344,None,1,001,2020_Nov_02_1403,road map expt,2020.2.4,60.034712069252784,
s,None,1,5,37,9,,,['k'],0,[0.17839860008098185],60.988484600093216,None,60.988484600093216,None,1,001,2020_Nov_02_1403,road map expt,2020.2.4,60.034712069252784,
k,None,1,6,38,10,,,['s'],0,[0.058724300004541874],61.18827060004696,None,61.18827060004696,None,1,001,2020_Nov_02_1403,road map expt,2020.2.4,60.034712069252784,
k,None,1,7,39,28,,,['k'],0,[0.11579239997081459],61.27150849997997,None,61.27150849997997,None,1,001,2020_Nov_02_1403,road map expt,2020.2.4,60.034712069252784,
s,None,1,8,40,4,,,['s'],0,[0.08319719997234643],61.40467990003526,None,61.40467990003526,None,1,001,2020_Nov_02_1403,road map expt,2020.2.4,60.034712069252784,
s,None,1,9,41,25,,,['k'],0,[0.09478479996323586],61.50477890018374,None,61.50477890018374,None,1,001,2020_Nov_02_1403,road map expt,2020.2.4,60.034712069252784,
k,None,1,10,42,6,,,['s'],0,[0.11923069995827973],61.620982700027525,None,61.620982700027525,None,1,001,2020_Nov_02_1403,road map expt,2020.2.4,60.034712069252784,
k,None,1,11,43,14,,,['k'],0,[0.017536200117319822],61.770895400084555,None,61.770895400084555,None,1,001,2020_Nov_02_1403,road map expt,2020.2.4,60.034712069252784,
k,None,1,12,44,3,,,['s'],0,[0.15568990004248917],61.8043768000789,None,61.8043768000789,None,1,001,2020_Nov_02_1403,road map expt,2020.2.4,60.034712069252784,
k,None,1,13,45,13,,,['k'],0,[0.020530999870970845],61.98764940002002,None,61.98764940002002,None,1,001,2020_Nov_02_1403,road map expt,2020.2.4,60.034712069252784,
k,None,1,14,46,7,,,['s'],0,[0.10579950013197958],62.03766330005601,None,62.03766330005601,None,1,001,2020_Nov_02_1403,road map expt,2020.2.4,60.034712069252784,
s,None,1,15,47,20,,,['k'],0,[0.04272710019722581],62.17015970009379,None,62.17015970009379,None,1,001,2020_Nov_02_1403,road map expt,2020.2.4,60.034712069252784,
k,None,1,16,48,17,,,['s'],0,[0.08984400006011128],62.23736740020104,None,62.23736740020104,None,1,001,2020_Nov_02_1403,road map expt,2020.2.4,60.034712069252784,
s,None,1,17,49,26,,,['k'],0,[0.03785600000992417],62.35390410013497,None,62.35390410013497,None,1,001,2020_Nov_02_1403,road map expt,2020.2.4,60.034712069252784,
k,None,1,18,50,22,,,['s'],0,[0.11700349999591708],62.41990470001474,None,62.41990470001474,None,1,001,2020_Nov_02_1403,road map expt,2020.2.4,60.034712069252784,
s,None,1,19,51,29,,,['k'],0,[0.0317049000877887],62.55382020003162,None,62.55382020003162,None,1,001,2020_Nov_02_1403,road map expt,2020.2.4,60.034712069252784,
k,None,1,20,52,23,,,['s'],0,[1.2692240998148918],62.60374030005187,None,62.60374030005187,None,1,001,2020_Nov_02_1403,road map expt,2020.2.4,60.034712069252784,
k,None,1,21,53,31,,,['k'],0,[0.07190079987049103],63.902616100152954,None,63.902616100152954,None,1,001,2020_Nov_02_1403,road map expt,2020.2.4,60.034712069252784,
k,None,1,22,54,18,,,['s'],0,[0.08639930002391338],64.002525200136,None,64.002525200136,None,1,001,2020_Nov_02_1403,road map expt,2020.2.4,60.034712069252784,
s,s = left,1,23,55,0,,,['k'],0,[0.012966499896720052],64.11893560015596,None,64.11893560015596,None,1,001,2020_Nov_02_1403,road map expt,2020.2.4,60.034712069252784,
s,None,1,24,56,16,,,['s'],0,[0.13215720001608133],64.15246100001968,None,64.15246100001968,None,1,001,2020_Nov_02_1403,road map expt,2020.2.4,60.034712069252784,
s,k = right,1,25,57,1,,,"['s', 'k']",0,"[0.1547630000859499, 0.15983589994721115]",64.30215810006484,None,64.30215810006484,None,1,001,2020_Nov_02_1403,road map expt,2020.2.4,60.034712069252784,
k,None,1,26,58,30,,,['k'],0,[0.1366318000946194],64.48550519999117,None,64.48550519999117,None,1,001,2020_Nov_02_1403,road map expt,2020.2.4,60.034712069252784,
s,None,1,27,59,12,,,['k'],0,[0.13306000013835728],64.65193690010346,None,64.65193690010346,None,1,001,2020_Nov_02_1403,road map expt,2020.2.4,60.034712069252784,
k,None,1,28,60,27,,,['s'],0,[0.03580510010942817],64.80182970012538,None,64.80182970012538,None,1,001,2020_Nov_02_1403,road map expt,2020.2.4,60.034712069252784,
s,None,1,29,61,11,,,['k'],0,[0.08969669998623431],64.86843110015616,None,64.86843110015616,None,1,001,2020_Nov_02_1403,road map expt,2020.2.4,60.034712069252784,
s,None,1,30,62,24,,,['s'],0,[0.010749900015071034],64.98491050000302,None,64.98491050000302,None,1,001,2020_Nov_02_1403,road map expt,2020.2.4,60.034712069252784,
s,None,1,31,63,15,,,['k'],0,[0.10333860013633966],65.01841920008883,None,65.01841920008883,None,1,001,2020_Nov_02_1403,road map expt,2020.2.4,60.034712069252784,
k,None,2,0,64,22,,,['s'],0,[0.013152600033208728],65.15170970000327,None,65.15170970000327,None,1,001,2020_Nov_02_1403,road map expt,2020.2.4,60.034712069252784,
s,k = right,2,1,65,1,,,['k'],0,[0.09870980004779994],65.18485540011898,None,65.18485540011898,None,1,001,2020_Nov_02_1403,road map expt,2020.2.4,60.034712069252784,
k,None,2,2,66,27,,,['s'],0,[0.02343800012022257],65.30144720012322,None,65.30144720012322,None,1,001,2020_Nov_02_1403,road map expt,2020.2.4,60.034712069252784,
s,None,2,3,67,26,,,['k'],0,[0.09335700003430247],65.35075560002588,None,65.35075560002588,None,1,001,2020_Nov_02_1403,road map expt,2020.2.4,60.034712069252784,
s,s = left,2,4,68,0,,,['s'],0,[0.015379999997094274],65.46784600010142,None,65.46784600010142,None,1,001,2020_Nov_02_1403,road map expt,2020.2.4,60.034712069252784,
k,None,2,5,69,23,,,['k'],0,[0.09413089998997748],65.50130610004999,None,65.50130610004999,None,1,001,2020_Nov_02_1403,road map expt,2020.2.4,60.034712069252784,
k,None,2,6,70,6,,,['s'],0,[0.06913239997811615],65.61720179999247,None,65.61720179999247,None,1,001,2020_Nov_02_1403,road map expt,2020.2.4,60.034712069252784,
s,None,2,7,71,19,,,['k'],0,[0.049671199871227145],65.70122990012169,None,65.70122990012169,None,1,001,2020_Nov_02_1403,road map expt,2020.2.4,60.034712069252784,
s,None,2,8,72,20,,,['s'],0,[0.12105960003100336],65.7677955001127,None,65.7677955001127,None,1,001,2020_Nov_02_1403,road map expt,2020.2.4,60.034712069252784,
s,None,2,9,73,15,,,['k'],0,[0.14886209997348487],65.91761150001548,None,65.91761150001548,None,1,001,2020_Nov_02_1403,road map expt,2020.2.4,60.034712069252784,
s,None,2,10,74,21,,,['s'],0,[0.001726000104099512],66.08419010019861,None,66.08419010019861,None,1,001,2020_Nov_02_1403,road map expt,2020.2.4,60.034712069252784,
s,None,2,11,75,11,,,['k'],0,[0.1406156998127699],66.10104660014622,None,66.10104660014622,None,1,001,2020_Nov_02_1403,road map expt,2020.2.4,60.034712069252784,
k,None,2,12,76,3,,,['s'],0,[0.006284800125285983],66.26740550016984,None,66.26740550016984,None,1,001,2020_Nov_02_1403,road map expt,2020.2.4,60.034712069252784,
k,None,2,13,77,7,,,['s'],0,[0.4865154998842627],66.30063599999994,None,66.30063599999994,None,1,001,2020_Nov_02_1403,road map expt,2020.2.4,60.034712069252784,
s,None,2,14,78,29,,,['s'],0,[1.056015299865976],66.81678160000592,None,66.81678160000592,None,1,001,2020_Nov_02_1403,road map expt,2020.2.4,60.034712069252784,
s,None,2,15,79,5,,,['s'],0,[0.1917401000391692],67.89936799998395,None,67.89936799998395,None,1,001,2020_Nov_02_1403,road map expt,2020.2.4,60.034712069252784,
k,None,2,16,80,13,,,['k'],0,[0.1736825001426041],68.11580849997699,None,68.11580849997699,None,1,001,2020_Nov_02_1403,road map expt,2020.2.4,60.034712069252784,
k,None,2,17,81,10,,,['s'],0,[0.027426700107753277],68.31560850003734,None,68.31560850003734,None,1,001,2020_Nov_02_1403,road map expt,2020.2.4,60.034712069252784,
s,None,2,18,82,16,,,['k'],0,[0.09573119995184243],68.3656913000159,None,68.3656913000159,None,1,001,2020_Nov_02_1403,road map expt,2020.2.4,60.034712069252784,
k,None,2,19,83,18,,,['s'],0,[0.016673200065270066],68.48224050016142,None,68.48224050016142,None,1,001,2020_Nov_02_1403,road map expt,2020.2.4,60.034712069252784,
k,None,2,20,84,14,,,['k'],0,[0.10192180005833507],68.51552690006793,None,68.51552690006793,None,1,001,2020_Nov_02_1403,road map expt,2020.2.4,60.034712069252784,
k,None,2,21,85,8,,,['s'],0,[0.011494599981233478],68.64875970012508,None,68.64875970012508,None,1,001,2020_Nov_02_1403,road map expt,2020.2.4,60.034712069252784,
k,None,2,22,86,31,,,['k'],0,[0.09796410007402301],68.6821742001921,None,68.6821742001921,None,1,001,2020_Nov_02_1403,road map expt,2020.2.4,60.034712069252784,
k,None,2,23,87,17,,,['k'],0,[0.14551719999872148],68.79882520018145,None,68.79882520018145,None,1,001,2020_Nov_02_1403,road map expt,2020.2.4,60.034712069252784,
s,None,2,24,88,25,,,"['s', 'k']",0,"[0.10349699994549155, 0.11476469994522631]",68.9652541000396,None,68.9652541000396,None,1,001,2020_Nov_02_1403,road map expt,2020.2.4,60.034712069252784,
k,None,2,25,89,28,,,['s'],0,[0.1242488999851048],69.09848300018348,None,69.09848300018348,None,1,001,2020_Nov_02_1403,road map expt,2020.2.4,60.034712069252784,
s,None,2,26,90,4,,,['k'],0,[0.13315479992888868],69.24827510002069,None,69.24827510002069,None,1,001,2020_Nov_02_1403,road map expt,2020.2.4,60.034712069252784,
s,None,2,27,91,12,,,['k'],0,[0.13156219990924],69.39812580007128,None,69.39812580007128,None,1,001,2020_Nov_02_1403,road map expt,2020.2.4,60.034712069252784,
k,None,2,28,92,30,,,['s'],0,[0.13663520012050867],69.54737840010785,None,69.54737840010785,None,1,001,2020_Nov_02_1403,road map expt,2020.2.4,60.034712069252784,
s,None,2,29,93,24,,,['k'],0,[0.017937199911102653],69.71403680020012,None,69.71403680020012,None,1,001,2020_Nov_02_1403,road map expt,2020.2.4,60.034712069252784,
k,None,2,30,94,2,,,['s'],0,[0.13793640001676977],69.7477535000071,None,69.7477535000071,None,1,001,2020_Nov_02_1403,road map expt,2020.2.4,60.034712069252784,
s,None,2,31,95,9,,,['s'],0,[0.13647979986853898],69.91450070007704,None,69.91450070007704,None,1,001,2020_Nov_02_1403,road map expt,2020.2.4,60.034712069252784,
k,None,3,0,96,10,,,['k'],0,[0.0022958999034017324],70.08082480006851,None,70.08082480006851,None,1,001,2020_Nov_02_1403,road map expt,2020.2.4,60.034712069252784,
k,None,3,1,97,31,,,['s'],0,[0.1256291999015957],70.09773040004075,None,70.09773040004075,None,1,001,2020_Nov_02_1403,road map expt,2020.2.4,60.034712069252784,
k,None,3,2,98,18,,,['k'],0,[0.0027614999562501907],70.24734980007634,None,70.24734980007634,None,1,001,2020_Nov_02_1403,road map expt,2020.2.4,60.034712069252784,
s,None,3,3,99,12,,,['s'],0,[0.14864939986728132],70.2639456000179,None,70.2639456000179,None,1,001,2020_Nov_02_1403,road map expt,2020.2.4,60.034712069252784,
k,None,3,4,100,8,,,['k'],0,[0.14052590006031096],70.43056960008107,None,70.43056960008107,None,1,001,2020_Nov_02_1403,road map expt,2020.2.4,60.034712069252784,
k,None,3,5,101,17,,,['s'],0,[0.0010865000076591969],70.597229400184,None,70.597229400184,None,1,001,2020_Nov_02_1403,road map expt,2020.2.4,60.034712069252784,
k,None,3,6,102,13,,,['k'],0,[0.12515809992328286],70.61387940007262,None,70.61387940007262,None,1,001,2020_Nov_02_1403,road map expt,2020.2.4,60.034712069252784,
k,None,3,7,103,22,,,['s'],0,[0.039567200001329184],70.76364310015924,None,70.76364310015924,None,1,001,2020_Nov_02_1403,road map expt,2020.2.4,60.034712069252784,
s,None,3,8,104,16,,,['k'],0,[0.13175829988904297],70.83037840016186,None,70.83037840016186,None,1,001,2020_Nov_02_1403,road map expt,2020.2.4,60.034712069252784,
s,None,3,9,105,15,,,['s'],0,[0.08227539993822575],70.98048320016824,None,70.98048320016824,None,1,001,2020_Nov_02_1403,road map expt,2020.2.4,60.034712069252784,
s,None,3,10,106,4,,,['k'],0,[0.1323311000596732],71.0801928001456,None,71.0801928001456,None,1,001,2020_Nov_02_1403,road map expt,2020.2.4,60.034712069252784,
k,None,3,11,107,2,,,['k'],0,[0.14742389996536076],71.22987959999591,None,71.22987959999591,None,1,001,2020_Nov_02_1403,road map expt,2020.2.4,60.034712069252784,
s,None,3,12,108,24,,,['s'],0,[0.050425299908965826],71.39580950001255,None,71.39580950001255,None,1,001,2020_Nov_02_1403,road map expt,2020.2.4,60.034712069252784,
s,None,3,13,109,26,,,['k'],0,[0.1177747999317944],71.46328470017761,None,71.46328470017761,None,1,001,2020_Nov_02_1403,road map expt,2020.2.4,60.034712069252784,
s,None,3,14,110,9,,,['s'],0,[0.02213530009612441],71.59634230006486,None,71.59634230006486,None,1,001,2020_Nov_02_1403,road map expt,2020.2.4,60.034712069252784,
k,None,3,15,111,6,,,['k'],0,[0.09878899995237589],71.64636270003393,None,71.64636270003393,None,1,001,2020_Nov_02_1403,road map expt,2020.2.4,60.034712069252784,
k,None,3,16,112,23,,,['s'],0,[0.028430600184947252],71.76324230013415,None,71.76324230013415,None,1,001,2020_Nov_02_1403,road map expt,2020.2.4,60.034712069252784,
s,None,3,17,113,25,,,['k'],0,[0.1240417999215424],71.81275000004098,None,71.81275000004098,None,1,001,2020_Nov_02_1403,road map expt,2020.2.4,60.034712069252784,
s,None,3,18,114,5,,,['k'],0,[0.1533458000048995],71.96271820017137,None,71.96271820017137,None,1,001,2020_Nov_02_1403,road map expt,2020.2.4,60.034712069252784,
k,None,3,19,115,3,,,['s'],0,[0.007622299948707223],72.14590680017136,None,72.14590680017136,None,1,001,2020_Nov_02_1403,road map expt,2020.2.4,60.034712069252784,
s,None,3,20,116,19,,,['k'],0,[0.09971380000934005],72.17920260014944,None,72.17920260014944,None,1,001,2020_Nov_02_1403,road map expt,2020.2.4,60.034712069252784,
k,None,3,21,117,28,,,['s'],0,[0.004132600035518408],72.29571480001323,None,72.29571480001323,None,1,001,2020_Nov_02_1403,road map expt,2020.2.4,60.034712069252784,
s,None,3,22,118,11,,,['k'],0,[0.11627930006943643],72.32893000007607,None,72.32893000007607,None,1,001,2020_Nov_02_1403,road map expt,2020.2.4,60.034712069252784,
s,s = left,3,23,119,0,,,['k'],0,[0.7644440999720246],72.46229150006548,None,72.46229150006548,None,1,001,2020_Nov_02_1403,road map expt,2020.2.4,60.034712069252784,
